participant,trial_num,trial_type,emotion,framing,peer,risk_level,FinancialDecisionResp.keys,FinancialDecisionResp.rt
1,13,peer,Neutral,Loss,Present,High,1,11.4875
1,14,peer,Neutral,Loss,Absent,High,1,8.1498
1,36,framing,Neutral,Loss,Absent,Low,2,10.499
1,4,emotion,Positive,Neutral,Absent,High,2,13.7054
1,28,peer,Neutral,Gain,Absent,High,2,6.0661
1,5,emotion,Negative,Neutral,Absent,Low,1,12.2315
1,21,peer,Neutral,Loss,Present,High,2,7.4484
1,33,framing,Neutral,Gain,Absent,High,2,8.9355
1,9,emotion,Neutral,Neutral,Absent,Low,1,4.6092
1,38,framing,Neutral,Loss,Absent,High,2,5.0671
1,39,framing,Neutral,Gain,Absent,Low,1,3.6332
1,23,peer,Neutral,Gain,Present,Low,1,9.1983
1,15,peer,Neutral,Gain,Present,High,2,3.7357
1,11,peer,Neutral,Gain,Present,Low,1,3.5591
1,12,peer,Neutral,Gain,Absent,Low,1,4.1027
1,2,emotion,Negative,Neutral,Absent,High,2,12.5644
1,16,peer,Neutral,Gain,Absent,High,2,11.5486
1,17,peer,Neutral,Loss,Present,Low,1,15.5137
1,35,framing,Neutral,Gain,Absent,Low,1,8.0059
1,30,peer,Neutral,Loss,Absent,Low,1,7.7011
1,26,peer,Neutral,Loss,Absent,High,2,3.6084
1,24,peer,Neutral,Gain,Absent,Low,1,2.1203
1,34,framing,Neutral,Loss,Absent,High,1,5.5487
1,10,emotion,Positive,Neutral,Absent,High,2,3.649
1,18,peer,Neutral,Loss,Absent,Low,1,3.9726
1,25,peer,Neutral,Loss,Present,High,2,1.866
1,27,peer,Neutral,Gain,Present,High,1,1.1352
1,6,emotion,Neutral,Neutral,Absent,High,1,1.1423
1,1,emotion,Positive,Neutral,Absent,Low,1,3.4162
1,31,framing,Neutral,Gain,Absent,Low,1,2.4385
1,8,emotion,Negative,Neutral,Absent,High,1,1.7775
1,20,peer,Neutral,Gain,Absent,Low,1,5.0522
1,22,peer,Neutral,Loss,Absent,High,2,5.966
1,32,framing,Neutral,Loss,Absent,Low,1,2.3174
1,37,framing,Neutral,Gain,Absent,High,2,1.4377
1,19,peer,Neutral,Gain,Present,Low,1,2.5423
1,7,emotion,Positive,Neutral,Absent,Low,1,1.002
1,3,emotion,Neutral,Neutral,Absent,Low,1,1.4374
1,40,framing,Neutral,Loss,Absent,Low,1,0.892
1,29,peer,Neutral,Loss,Present,Low,1,0.7173
2,21,peer,Neutral,Loss,Present,High,1,5.7413
2,26,peer,Neutral,Loss,Absent,High,2,6.624
2,4,emotion,Positive,Neutral,Absent,High,1,3.1612
2,6,emotion,Neutral,Neutral,Absent,High,1,4.4467
2,19,peer,Neutral,Gain,Present,Low,2,2.8656
2,37,framing,Neutral,Gain,Absent,High,1,0.0007
2,31,framing,Neutral,Gain,Absent,Low,2,1.2269
2,9,emotion,Neutral,Neutral,Absent,Low,2,0.6673
2,22,peer,Neutral,Loss,Absent,High,2,0.4839
2,7,emotion,Positive,Neutral,Absent,Low,2,1.504
2,32,framing,Neutral,Loss,Absent,Low,2,7.476
2,33,framing,Neutral,Gain,Absent,High,1,2.4535
2,35,framing,Neutral,Gain,Absent,Low,1,3.0643
2,10,emotion,Positive,Neutral,Absent,High,1,2.1722
2,11,peer,Neutral,Gain,Present,Low,2,0.8363
2,25,peer,Neutral,Loss,Present,High,1,1.5991
2,38,framing,Neutral,Loss,Absent,High,1,0.4157
2,1,emotion,Positive,Neutral,Absent,Low,2,1.5169
2,17,peer,Neutral,Loss,Present,Low,1,1.7845
2,3,emotion,Neutral,Neutral,Absent,Low,1,1.3005
2,23,peer,Neutral,Gain,Present,Low,1,0.0007
2,2,emotion,Negative,Neutral,Absent,High,2,1.579
2,16,peer,Neutral,Gain,Absent,High,2,3.9163
2,40,framing,Neutral,Loss,Absent,Low,2,3.0643
2,12,peer,Neutral,Gain,Absent,Low,2,0.4061
2,28,peer,Neutral,Gain,Absent,High,2,0.4185
2,29,peer,Neutral,Loss,Present,Low,2,0.7189
2,13,peer,Neutral,Loss,Present,High,1,1.1337
2,36,framing,Neutral,Loss,Absent,Low,2,1.6389
2,39,framing,Neutral,Gain,Absent,Low,1,6.8778
2,27,peer,Neutral,Gain,Present,High,1,0.9185
2,18,peer,Neutral,Loss,Absent,Low,1,0.4278
2,15,peer,Neutral,Gain,Present,High,2,0.3354
2,5,emotion,Negative,Neutral,Absent,Low,1,2.8673
2,30,peer,Neutral,Loss,Absent,Low,2,0.0432
2,14,peer,Neutral,Loss,Absent,High,2,1.0323
2,8,emotion,Negative,Neutral,Absent,High,1,2.0924
2,24,peer,Neutral,Gain,Absent,Low,2,4.2467
2,34,framing,Neutral,Loss,Absent,High,2,0.9933
2,20,peer,Neutral,Gain,Absent,Low,2,4.2638
3,32,framing,Neutral,Loss,Absent,Low,2,22.9225
3,3,emotion,Neutral,Neutral,Absent,Low,1,27.3797
3,40,framing,Neutral,Loss,Absent,Low,2,42.5164
3,22,peer,Neutral,Loss,Absent,High,2,11.1876
3,27,peer,Neutral,Gain,Present,High,2,15.0244
3,37,framing,Neutral,Gain,Absent,High,2,11.1785
3,29,peer,Neutral,Loss,Present,Low,2,17.851
3,18,peer,Neutral,Loss,Absent,Low,2,7.7921
3,4,emotion,Positive,Neutral,Absent,High,2,9.9813
3,2,emotion,Negative,Neutral,Absent,High,2,4.3537
3,28,peer,Neutral,Gain,Absent,High,2,7.001
3,7,emotion,Positive,Neutral,Absent,Low,2,5.0568
3,16,peer,Neutral,Gain,Absent,High,2,3.6113
3,1,emotion,Positive,Neutral,Absent,Low,2,3.3901
3,38,framing,Neutral,Loss,Absent,High,2,7.1723
3,26,peer,Neutral,Loss,Absent,High,2,5.8407
3,21,peer,Neutral,Loss,Present,High,2,10.2131
3,35,framing,Neutral,Gain,Absent,Low,2,5.7965
3,25,peer,Neutral,Loss,Present,High,2,4.0396
3,6,emotion,Neutral,Neutral,Absent,High,2,3.082
3,8,emotion,Negative,Neutral,Absent,High,2,2.0251
3,13,peer,Neutral,Loss,Present,High,2,1.9878
3,17,peer,Neutral,Loss,Present,Low,2,3.187
3,11,peer,Neutral,Gain,Present,Low,2,4.4808
3,23,peer,Neutral,Gain,Present,Low,2,3.6613
3,34,framing,Neutral,Loss,Absent,High,2,2.4527
3,39,framing,Neutral,Gain,Absent,Low,2,2.3467
3,19,peer,Neutral,Gain,Present,Low,2,1.8632
3,20,peer,Neutral,Gain,Absent,Low,2,1.618
3,14,peer,Neutral,Loss,Absent,High,2,2.1192
3,10,emotion,Positive,Neutral,Absent,High,2,1.6653
3,31,framing,Neutral,Gain,Absent,Low,2,2.4376
3,36,framing,Neutral,Loss,Absent,Low,2,1.2283
3,9,emotion,Neutral,Neutral,Absent,Low,2,1.6378
3,30,peer,Neutral,Loss,Absent,Low,2,1.4676
3,24,peer,Neutral,Gain,Absent,Low,2,1.9037
3,15,peer,Neutral,Gain,Present,High,2,3.2336
3,33,framing,Neutral,Gain,Absent,High,2,1.7564
3,5,emotion,Negative,Neutral,Absent,Low,2,1.2621
3,12,peer,Neutral,Gain,Absent,Low,2,1.7727
5,15,peer,Neutral,Gain,Present,High,1,82.0412
5,10,emotion,Positive,Neutral,Absent,High,1,36.9115
5,27,peer,Neutral,Gain,Present,High,2,6.6238
5,36,framing,Neutral,Loss,Absent,Low,1,38.7531
5,34,framing,Neutral,Loss,Absent,High,2,3.6901
5,3,emotion,Neutral,Neutral,Absent,Low,2,20.2225
5,17,peer,Neutral,Loss,Present,Low,2,6.3744
5,32,framing,Neutral,Loss,Absent,Low,1,3.3589
5,14,peer,Neutral,Loss,Absent,High,1,16.0657
5,30,peer,Neutral,Loss,Absent,Low,1,18.2235
5,19,peer,Neutral,Gain,Present,Low,1,5.2664
5,29,peer,Neutral,Loss,Present,Low,1,12.9835
5,5,emotion,Negative,Neutral,Absent,Low,1,13.6396
5,6,emotion,Neutral,Neutral,Absent,High,2,33.5954
5,38,framing,Neutral,Loss,Absent,High,2,3.8933
5,24,peer,Neutral,Gain,Absent,Low,1,9.4904
5,35,framing,Neutral,Gain,Absent,Low,1,16.2234
5,7,emotion,Positive,Neutral,Absent,Low,1,4.2582
5,25,peer,Neutral,Loss,Present,High,2,38.0358
5,39,framing,Neutral,Gain,Absent,Low,1,2.1466
5,13,peer,Neutral,Loss,Present,High,2,3.2394
5,40,framing,Neutral,Loss,Absent,Low,1,2.1242
5,8,emotion,Negative,Neutral,Absent,High,2,3.3916
5,11,peer,Neutral,Gain,Present,Low,1,4.3903
5,33,framing,Neutral,Gain,Absent,High,2,3.2958
5,22,peer,Neutral,Loss,Absent,High,2,1.9335
5,9,emotion,Neutral,Neutral,Absent,Low,1,1.7228
5,1,emotion,Positive,Neutral,Absent,Low,1,2.5757
5,28,peer,Neutral,Gain,Absent,High,2,2.3406
5,37,framing,Neutral,Gain,Absent,High,2,1.3854
5,4,emotion,Positive,Neutral,Absent,High,2,0.8826
5,23,peer,Neutral,Gain,Present,Low,1,2.7218
5,18,peer,Neutral,Loss,Absent,Low,1,4.4005
5,21,peer,Neutral,Loss,Present,High,2,3.5343
5,26,peer,Neutral,Loss,Absent,High,2,1.5332
5,20,peer,Neutral,Gain,Absent,Low,1,1.4892
5,12,peer,Neutral,Gain,Absent,Low,1,2.7504
5,16,peer,Neutral,Gain,Absent,High,2,2.7075
5,2,emotion,Negative,Neutral,Absent,High,2,2.6246
5,31,framing,Neutral,Gain,Absent,Low,1,1.3159
6,38,framing,Neutral,Loss,Absent,High,2,33.9133
6,18,peer,Neutral,Loss,Absent,Low,1,48.9393
6,1,emotion,Positive,Neutral,Absent,Low,1,6.8166
6,30,peer,Neutral,Loss,Absent,Low,1,19.1193
6,24,peer,Neutral,Gain,Absent,Low,2,37.9132
6,4,emotion,Positive,Neutral,Absent,High,2,9.5291
6,33,framing,Neutral,Gain,Absent,High,2,6.7703
6,19,peer,Neutral,Gain,Present,Low,2,3.7126
6,10,emotion,Positive,Neutral,Absent,High,2,2.0787
6,23,peer,Neutral,Gain,Present,Low,2,1.4965
6,21,peer,Neutral,Loss,Present,High,2,1.8937
6,20,peer,Neutral,Gain,Absent,Low,2,1.5837
6,12,peer,Neutral,Gain,Absent,Low,2,1.9618
6,15,peer,Neutral,Gain,Present,High,2,8.9376
6,40,framing,Neutral,Loss,Absent,Low,2,2.0964
6,31,framing,Neutral,Gain,Absent,Low,2,0.587
6,5,emotion,Negative,Neutral,Absent,Low,2,1.5189
6,14,peer,Neutral,Loss,Absent,High,2,1.1104
6,16,peer,Neutral,Gain,Absent,High,2,1.2514
6,13,peer,Neutral,Loss,Present,High,2,1.2712
6,27,peer,Neutral,Gain,Present,High,2,0.5729
6,7,emotion,Positive,Neutral,Absent,Low,2,1.0607
6,25,peer,Neutral,Loss,Present,High,2,2.6186
6,34,framing,Neutral,Loss,Absent,High,2,1.1546
6,39,framing,Neutral,Gain,Absent,Low,2,1.8665
6,17,peer,Neutral,Loss,Present,Low,2,1.5826
6,26,peer,Neutral,Loss,Absent,High,2,0.5346
6,32,framing,Neutral,Loss,Absent,Low,2,0.3166
6,8,emotion,Negative,Neutral,Absent,High,2,0.9872
6,28,peer,Neutral,Gain,Absent,High,2,0.4605
6,22,peer,Neutral,Loss,Absent,High,2,1.6481
6,3,emotion,Neutral,Neutral,Absent,Low,2,0.7591
6,35,framing,Neutral,Gain,Absent,Low,2,1.3551
6,29,peer,Neutral,Loss,Present,Low,2,3.0722
6,11,peer,Neutral,Gain,Present,Low,2,0.8532
6,36,framing,Neutral,Loss,Absent,Low,2,1.1602
6,2,emotion,Negative,Neutral,Absent,High,2,0.7147
6,37,framing,Neutral,Gain,Absent,High,2,0.3843
6,6,emotion,Neutral,Neutral,Absent,High,2,0.596
6,9,emotion,Neutral,Neutral,Absent,Low,2,0.6926
8,6,emotion,Neutral,Neutral,Absent,High,1,28.936
8,1,emotion,Positive,Neutral,Absent,Low,1,29.602
8,21,peer,Neutral,Loss,Present,High,2,25.3143
8,3,emotion,Neutral,Neutral,Absent,Low,1,5.4443
8,37,framing,Neutral,Gain,Absent,High,1,10.3929
8,16,peer,Neutral,Gain,Absent,High,2,12.8007
8,10,emotion,Positive,Neutral,Absent,High,1,3.7013
8,24,peer,Neutral,Gain,Absent,Low,2,14.584
8,7,emotion,Positive,Neutral,Absent,Low,1,5.4368
8,28,peer,Neutral,Gain,Absent,High,2,2.9364
8,22,peer,Neutral,Loss,Absent,High,1,2.0957
8,35,framing,Neutral,Gain,Absent,Low,2,2.8198
8,36,framing,Neutral,Loss,Absent,Low,2,11.3717
8,31,framing,Neutral,Gain,Absent,Low,1,0.2527
8,23,peer,Neutral,Gain,Present,Low,1,0.9679
8,25,peer,Neutral,Loss,Present,High,2,0.4118
8,12,peer,Neutral,Gain,Absent,Low,1,0.577
8,30,peer,Neutral,Loss,Absent,Low,2,1.7009
8,14,peer,Neutral,Loss,Absent,High,1,14.2268
8,38,framing,Neutral,Loss,Absent,High,2,8.7078
8,4,emotion,Positive,Neutral,Absent,High,1,2.5507
8,2,emotion,Negative,Neutral,Absent,High,2,2.0691
8,19,peer,Neutral,Gain,Present,Low,1,0.3114
8,39,framing,Neutral,Gain,Absent,Low,1,0.0663
8,33,framing,Neutral,Gain,Absent,High,1,0.7745
8,32,framing,Neutral,Loss,Absent,Low,1,8.7944
8,40,framing,Neutral,Loss,Absent,Low,1,5.3671
8,18,peer,Neutral,Loss,Absent,Low,1,2.3443
8,13,peer,Neutral,Loss,Present,High,2,0.8428
8,8,emotion,Negative,Neutral,Absent,High,1,1.3602
8,27,peer,Neutral,Gain,Present,High,2,0.0424
8,29,peer,Neutral,Loss,Present,Low,1,0.8279
8,11,peer,Neutral,Gain,Present,Low,2,1.0016
8,15,peer,Neutral,Gain,Present,High,2,0.2565
8,34,framing,Neutral,Loss,Absent,High,2,0.7764
8,26,peer,Neutral,Loss,Absent,High,1,1.0005
8,5,emotion,Negative,Neutral,Absent,Low,1,2.1507
8,20,peer,Neutral,Gain,Absent,Low,1,1.0211
8,9,emotion,Neutral,Neutral,Absent,Low,2,1.4536
8,17,peer,Neutral,Loss,Present,Low,1,1.1502
10,8,emotion,Negative,Neutral,Absent,High,2,24.0187
10,40,framing,Neutral,Loss,Absent,Low,2,16.3142
10,6,emotion,Neutral,Neutral,Absent,High,2,25.5909
10,3,emotion,Neutral,Neutral,Absent,Low,2,14.0784
10,20,peer,Neutral,Gain,Absent,Low,2,10.8371
10,33,framing,Neutral,Gain,Absent,High,2,15.4477
10,11,peer,Neutral,Gain,Present,Low,2,4.4515
10,34,framing,Neutral,Loss,Absent,High,2,2.7009
10,27,peer,Neutral,Gain,Present,High,2,1.7496
10,26,peer,Neutral,Loss,Absent,High,2,23.0633
10,25,peer,Neutral,Loss,Present,High,1,6.8476
10,10,emotion,Positive,Neutral,Absent,High,2,2.8475
10,4,emotion,Positive,Neutral,Absent,High,2,2.6687
10,23,peer,Neutral,Gain,Present,Low,2,5.2647
10,14,peer,Neutral,Loss,Absent,High,2,4.3008
10,37,framing,Neutral,Gain,Absent,High,2,26.6844
10,15,peer,Neutral,Gain,Present,High,2,1.7665
10,17,peer,Neutral,Loss,Present,Low,1,1.335
10,36,framing,Neutral,Loss,Absent,Low,2,7.8011
10,29,peer,Neutral,Loss,Present,Low,2,3.0566
10,30,peer,Neutral,Loss,Absent,Low,2,2.9844
10,12,peer,Neutral,Gain,Absent,Low,2,1.6012
10,5,emotion,Negative,Neutral,Absent,Low,2,2.9016
10,35,framing,Neutral,Gain,Absent,Low,2,15.7517
10,38,framing,Neutral,Loss,Absent,High,2,2.1514
10,18,peer,Neutral,Loss,Absent,Low,2,1.4885
10,7,emotion,Positive,Neutral,Absent,Low,2,1.9663
10,19,peer,Neutral,Gain,Present,Low,2,7.0473
10,1,emotion,Positive,Neutral,Absent,Low,2,3.3657
10,24,peer,Neutral,Gain,Absent,Low,2,1.2843
10,13,peer,Neutral,Loss,Present,High,1,1.9856
10,2,emotion,Negative,Neutral,Absent,High,2,2.2025
10,32,framing,Neutral,Loss,Absent,Low,2,1.3923
10,21,peer,Neutral,Loss,Present,High,1,1.5323
10,39,framing,Neutral,Gain,Absent,Low,2,2.7166
10,16,peer,Neutral,Gain,Absent,High,2,0.8179
10,31,framing,Neutral,Gain,Absent,Low,2,2.3115
10,9,emotion,Neutral,Neutral,Absent,Low,2,1.1045
10,22,peer,Neutral,Loss,Absent,High,2,0.8596
10,28,peer,Neutral,Gain,Absent,High,2,0.0678
22,7,emotion,Positive,Neutral,Absent,Low,1,27.212
22,27,peer,Neutral,Gain,Present,High,2,37.1071
22,6,emotion,Neutral,Neutral,Absent,High,2,20.3755
22,20,peer,Neutral,Gain,Absent,Low,1,21.3827
22,36,framing,Neutral,Loss,Absent,Low,1,11.0099
22,12,peer,Neutral,Gain,Absent,Low,1,9.4789
22,15,peer,Neutral,Gain,Present,High,2,4.6087
22,16,peer,Neutral,Gain,Absent,High,2,2.9505
22,33,framing,Neutral,Gain,Absent,High,2,7.2509
22,29,peer,Neutral,Loss,Present,Low,2,10.0681
22,14,peer,Neutral,Loss,Absent,High,2,3.8024
22,13,peer,Neutral,Loss,Present,High,2,6.4995
22,25,peer,Neutral,Loss,Present,High,2,9.1082
22,22,peer,Neutral,Loss,Absent,High,2,5.5225
22,24,peer,Neutral,Gain,Absent,Low,2,19.8047
22,23,peer,Neutral,Gain,Present,Low,2,3.7834
22,34,framing,Neutral,Loss,Absent,High,2,1.9721
22,9,emotion,Neutral,Neutral,Absent,Low,2,2.6148
22,40,framing,Neutral,Loss,Absent,Low,2,2.6871
22,5,emotion,Negative,Neutral,Absent,Low,2,4.9318
22,1,emotion,Positive,Neutral,Absent,Low,2,17.1084
22,30,peer,Neutral,Loss,Absent,Low,2,7.1704
22,3,emotion,Neutral,Neutral,Absent,Low,2,1.1705
22,31,framing,Neutral,Gain,Absent,Low,2,1.6489
22,28,peer,Neutral,Gain,Absent,High,2,2.7748
22,10,emotion,Positive,Neutral,Absent,High,2,1.9572
22,8,emotion,Negative,Neutral,Absent,High,2,3.4408
22,39,framing,Neutral,Gain,Absent,Low,2,3.0828
22,19,peer,Neutral,Gain,Present,Low,2,2.5919
22,2,emotion,Negative,Neutral,Absent,High,2,2.5456
22,35,framing,Neutral,Gain,Absent,Low,2,1.0611
22,17,peer,Neutral,Loss,Present,Low,2,3.0855
22,11,peer,Neutral,Gain,Present,Low,2,4.2774
22,38,framing,Neutral,Loss,Absent,High,2,3.1066
22,37,framing,Neutral,Gain,Absent,High,2,1.8789
22,21,peer,Neutral,Loss,Present,High,2,2.1119
22,32,framing,Neutral,Loss,Absent,Low,2,1.297
22,4,emotion,Positive,Neutral,Absent,High,2,1.0264
22,18,peer,Neutral,Loss,Absent,Low,2,0.7879
22,26,peer,Neutral,Loss,Absent,High,2,0.83
23,4,emotion,Positive,Neutral,Absent,High,1,3.8574
23,25,peer,Neutral,Loss,Present,High,1,21.3263
23,40,framing,Neutral,Loss,Absent,Low,2,7.9468
23,12,peer,Neutral,Gain,Absent,Low,1,24.8624
23,39,framing,Neutral,Gain,Absent,Low,1,3.9617
23,22,peer,Neutral,Loss,Absent,High,1,23.6545
23,19,peer,Neutral,Gain,Present,Low,1,4.4932
23,9,emotion,Neutral,Neutral,Absent,Low,1,1.2781
23,38,framing,Neutral,Loss,Absent,High,1,1.3831
23,15,peer,Neutral,Gain,Present,High,1,2.7996
23,23,peer,Neutral,Gain,Present,Low,1,12.362
23,13,peer,Neutral,Loss,Present,High,1,1.202
23,34,framing,Neutral,Loss,Absent,High,1,0.3705
23,31,framing,Neutral,Gain,Absent,Low,1,0.5978
23,35,framing,Neutral,Gain,Absent,Low,1,1.7167
23,29,peer,Neutral,Loss,Present,Low,1,5.1655
23,14,peer,Neutral,Loss,Absent,High,1,22.9456
23,36,framing,Neutral,Loss,Absent,Low,2,47.2544
23,37,framing,Neutral,Gain,Absent,High,1,25.9588
23,33,framing,Neutral,Gain,Absent,High,1,0.6353
23,20,peer,Neutral,Gain,Absent,Low,1,0.8802
23,5,emotion,Negative,Neutral,Absent,Low,1,10.6234
23,26,peer,Neutral,Loss,Absent,High,1,0.7637
23,3,emotion,Neutral,Neutral,Absent,Low,1,0.5874
23,10,emotion,Positive,Neutral,Absent,High,1,0.1181
23,32,framing,Neutral,Loss,Absent,Low,1,1.6332
23,27,peer,Neutral,Gain,Present,High,1,2.0263
23,28,peer,Neutral,Gain,Absent,High,1,0.4397
23,21,peer,Neutral,Loss,Present,High,1,1.019
23,6,emotion,Neutral,Neutral,Absent,High,1,3.3485
23,2,emotion,Negative,Neutral,Absent,High,1,4.5149
23,8,emotion,Negative,Neutral,Absent,High,1,1.0871
23,24,peer,Neutral,Gain,Absent,Low,1,4.7947
23,30,peer,Neutral,Loss,Absent,Low,1,2.0539
23,17,peer,Neutral,Loss,Present,Low,1,3.2014
23,16,peer,Neutral,Gain,Absent,High,1,0.8399
23,18,peer,Neutral,Loss,Absent,Low,1,3.1638
23,11,peer,Neutral,Gain,Present,Low,1,0.3255
23,7,emotion,Positive,Neutral,Absent,Low,1,0.6672
23,1,emotion,Positive,Neutral,Absent,Low,1,2.4814
30,23,peer,Neutral,Gain,Present,Low,1,10.1449
30,19,peer,Neutral,Gain,Present,Low,1,6.1339
30,40,framing,Neutral,Loss,Absent,Low,1,3.6026
30,13,peer,Neutral,Loss,Present,High,1,6.5967
30,15,peer,Neutral,Gain,Present,High,1,2.7738
30,16,peer,Neutral,Gain,Absent,High,1,2.0127
30,7,emotion,Positive,Neutral,Absent,Low,1,2.973
30,4,emotion,Positive,Neutral,Absent,High,1,4.1275
30,38,framing,Neutral,Loss,Absent,High,1,2.1696
30,20,peer,Neutral,Gain,Absent,Low,1,1.9192
30,37,framing,Neutral,Gain,Absent,High,1,1.569
30,9,emotion,Neutral,Neutral,Absent,Low,1,1.0446
30,35,framing,Neutral,Gain,Absent,Low,1,1.1887
30,29,peer,Neutral,Loss,Present,Low,1,3.0006
30,3,emotion,Neutral,Neutral,Absent,Low,1,2.168
30,8,emotion,Negative,Neutral,Absent,High,1,2.2083
30,27,peer,Neutral,Gain,Present,High,1,1.572
30,12,peer,Neutral,Gain,Absent,Low,1,1.2335
30,6,emotion,Neutral,Neutral,Absent,High,1,1.0708
30,10,emotion,Positive,Neutral,Absent,High,1,2.6516
30,22,peer,Neutral,Loss,Absent,High,1,1.2858
30,32,framing,Neutral,Loss,Absent,Low,1,1.2032
30,31,framing,Neutral,Gain,Absent,Low,1,0.9344
30,11,peer,Neutral,Gain,Present,Low,1,1.227
30,24,peer,Neutral,Gain,Absent,Low,1,1.2949
30,33,framing,Neutral,Gain,Absent,High,1,0.7527
30,28,peer,Neutral,Gain,Absent,High,1,0.6019
30,39,framing,Neutral,Gain,Absent,Low,1,0.6026
30,26,peer,Neutral,Loss,Absent,High,1,0.7254
30,18,peer,Neutral,Loss,Absent,Low,1,1.0273
30,30,peer,Neutral,Loss,Absent,Low,1,1.4013
30,2,emotion,Negative,Neutral,Absent,High,1,1.4466
30,14,peer,Neutral,Loss,Absent,High,1,1.5378
30,1,emotion,Positive,Neutral,Absent,Low,1,0.8691
30,17,peer,Neutral,Loss,Present,Low,1,0.8356
30,25,peer,Neutral,Loss,Present,High,1,1.1402
30,34,framing,Neutral,Loss,Absent,High,1,1.8926
30,36,framing,Neutral,Loss,Absent,Low,1,0.7543
30,21,peer,Neutral,Loss,Present,High,1,1.4776
30,5,emotion,Negative,Neutral,Absent,Low,1,1.1827
31,30,peer,Neutral,Loss,Absent,Low,1,17.3842
31,26,peer,Neutral,Loss,Absent,High,2,13.52
31,19,peer,Neutral,Gain,Present,Low,2,17.2725
31,8,emotion,Negative,Neutral,Absent,High,2,5.9658
31,27,peer,Neutral,Gain,Present,High,1,3.1507
31,28,peer,Neutral,Gain,Absent,High,2,4.5308
31,37,framing,Neutral,Gain,Absent,High,2,1.4685
31,16,peer,Neutral,Gain,Absent,High,2,1.1341
31,22,peer,Neutral,Loss,Absent,High,2,0.9996
31,33,framing,Neutral,Gain,Absent,High,2,0.9178
31,40,framing,Neutral,Loss,Absent,Low,2,2.5849
31,2,emotion,Negative,Neutral,Absent,High,1,9.042
31,24,peer,Neutral,Gain,Absent,Low,2,8.2394
31,21,peer,Neutral,Loss,Present,High,2,4.0147
31,18,peer,Neutral,Loss,Absent,Low,2,2.7295
31,5,emotion,Negative,Neutral,Absent,Low,1,1.9554
31,34,framing,Neutral,Loss,Absent,High,2,0.8178
31,4,emotion,Positive,Neutral,Absent,High,2,0.918
31,12,peer,Neutral,Gain,Absent,Low,2,0.7086
31,36,framing,Neutral,Loss,Absent,Low,2,0.4688
31,23,peer,Neutral,Gain,Present,Low,2,0.7397
31,9,emotion,Neutral,Neutral,Absent,Low,2,0.39
31,17,peer,Neutral,Loss,Present,Low,2,0.3145
31,13,peer,Neutral,Loss,Present,High,2,0.8701
31,32,framing,Neutral,Loss,Absent,Low,2,0.9117
31,6,emotion,Neutral,Neutral,Absent,High,2,0.0832
31,7,emotion,Positive,Neutral,Absent,Low,2,1.1494
31,3,emotion,Neutral,Neutral,Absent,Low,2,0.5054
31,31,framing,Neutral,Gain,Absent,Low,2,1.9164
31,1,emotion,Positive,Neutral,Absent,Low,1,2.1214
31,20,peer,Neutral,Gain,Absent,Low,2,0.3689
31,14,peer,Neutral,Loss,Absent,High,2,1.1051
31,39,framing,Neutral,Gain,Absent,Low,2,0.404
31,10,emotion,Positive,Neutral,Absent,High,1,0.8515
31,25,peer,Neutral,Loss,Present,High,2,0.3255
31,35,framing,Neutral,Gain,Absent,Low,1,2.3414
31,11,peer,Neutral,Gain,Present,Low,2,3.5114
31,38,framing,Neutral,Loss,Absent,High,1,0.39
31,29,peer,Neutral,Loss,Present,Low,2,2.417
31,15,peer,Neutral,Gain,Present,High,2,2.5262
32,30,peer,Neutral,Loss,Absent,Low,2,15.7825
32,33,framing,Neutral,Gain,Absent,High,2,31.013
32,26,peer,Neutral,Loss,Absent,High,2,4.1757
32,32,framing,Neutral,Loss,Absent,Low,2,5.9175
32,38,framing,Neutral,Loss,Absent,High,2,17.831
32,28,peer,Neutral,Gain,Absent,High,2,0.5687
32,34,framing,Neutral,Loss,Absent,High,2,5.2525
32,35,framing,Neutral,Gain,Absent,Low,2,6.1906
32,29,peer,Neutral,Loss,Present,Low,1,15.9214
32,1,emotion,Positive,Neutral,Absent,Low,2,4.6359
32,15,peer,Neutral,Gain,Present,High,2,6.4081
32,16,peer,Neutral,Gain,Absent,High,2,1.7506
32,40,framing,Neutral,Loss,Absent,Low,2,2.0474
32,25,peer,Neutral,Loss,Present,High,2,4.5525
32,6,emotion,Neutral,Neutral,Absent,High,2,8.0336
32,37,framing,Neutral,Gain,Absent,High,2,6.4331
32,27,peer,Neutral,Gain,Present,High,2,6.3857
32,7,emotion,Positive,Neutral,Absent,Low,2,2.4304
32,2,emotion,Negative,Neutral,Absent,High,2,1.3948
32,23,peer,Neutral,Gain,Present,Low,2,2.2443
32,8,emotion,Negative,Neutral,Absent,High,2,2.0028
32,11,peer,Neutral,Gain,Present,Low,2,13.7846
32,21,peer,Neutral,Loss,Present,High,2,0.0489
32,4,emotion,Positive,Neutral,Absent,High,2,14.4496
32,31,framing,Neutral,Gain,Absent,Low,2,0.4839
32,17,peer,Neutral,Loss,Present,Low,2,0.39
32,3,emotion,Neutral,Neutral,Absent,Low,2,0.8106
32,10,emotion,Positive,Neutral,Absent,High,2,0.8818
32,22,peer,Neutral,Loss,Absent,High,2,0.29
32,13,peer,Neutral,Loss,Present,High,2,0.4369
32,19,peer,Neutral,Gain,Present,Low,2,6.0322
32,39,framing,Neutral,Gain,Absent,Low,2,4.7339
32,14,peer,Neutral,Loss,Absent,High,1,9.5002
32,36,framing,Neutral,Loss,Absent,Low,1,0.705
32,18,peer,Neutral,Loss,Absent,Low,2,0.4008
32,20,peer,Neutral,Gain,Absent,Low,2,1.7233
32,9,emotion,Neutral,Neutral,Absent,Low,2,1.1362
32,24,peer,Neutral,Gain,Absent,Low,2,0.5871
32,5,emotion,Negative,Neutral,Absent,Low,2,0.4506
32,12,peer,Neutral,Gain,Absent,Low,2,3.3493
33,16,peer,Neutral,Gain,Absent,High,1,19.4006
33,28,peer,Neutral,Gain,Absent,High,1,6.1536
33,34,framing,Neutral,Loss,Absent,High,2,7.0805
33,17,peer,Neutral,Loss,Present,Low,2,14.1588
33,27,peer,Neutral,Gain,Present,High,2,7.6689
33,35,framing,Neutral,Gain,Absent,Low,2,5.6526
33,8,emotion,Negative,Neutral,Absent,High,2,6.4313
33,20,peer,Neutral,Gain,Absent,Low,2,0.8122
33,14,peer,Neutral,Loss,Absent,High,2,1.6136
33,40,framing,Neutral,Loss,Absent,Low,2,3.5783
33,7,emotion,Positive,Neutral,Absent,Low,1,10.4573
33,33,framing,Neutral,Gain,Absent,High,1,9.3556
33,36,framing,Neutral,Loss,Absent,Low,1,1.0743
33,32,framing,Neutral,Loss,Absent,Low,1,0.4995
33,25,peer,Neutral,Loss,Present,High,1,0.4027
33,9,emotion,Neutral,Neutral,Absent,Low,1,1.3165
33,38,framing,Neutral,Loss,Absent,High,1,0.4852
33,18,peer,Neutral,Loss,Absent,Low,1,1.0509
33,19,peer,Neutral,Gain,Present,Low,1,0.6651
33,5,emotion,Negative,Neutral,Absent,Low,1,0.603
33,3,emotion,Neutral,Neutral,Absent,Low,1,0.3608
33,15,peer,Neutral,Gain,Present,High,1,0.4768
33,10,emotion,Positive,Neutral,Absent,High,1,0.7319
33,6,emotion,Neutral,Neutral,Absent,High,1,0.6162
33,39,framing,Neutral,Gain,Absent,Low,1,0.6483
33,30,peer,Neutral,Loss,Absent,Low,1,0.5062
33,4,emotion,Positive,Neutral,Absent,High,1,0.588
33,13,peer,Neutral,Loss,Present,High,1,0.5684
33,12,peer,Neutral,Gain,Absent,Low,1,0.4
33,1,emotion,Positive,Neutral,Absent,Low,1,0.5487
33,22,peer,Neutral,Loss,Absent,High,1,0.8164
33,21,peer,Neutral,Loss,Present,High,1,0.4295
33,26,peer,Neutral,Loss,Absent,High,1,1.8222
33,24,peer,Neutral,Gain,Absent,Low,1,1.1194
33,31,framing,Neutral,Gain,Absent,Low,1,0.5552
33,2,emotion,Negative,Neutral,Absent,High,1,0.9886
33,37,framing,Neutral,Gain,Absent,High,1,0.4237
33,11,peer,Neutral,Gain,Present,Low,1,2.2993
33,23,peer,Neutral,Gain,Present,Low,1,33.4166
33,29,peer,Neutral,Loss,Present,Low,1,1.2478
35,31,framing,Neutral,Gain,Absent,Low,2,9.1594
35,13,peer,Neutral,Loss,Present,High,2,14.903
35,40,framing,Neutral,Loss,Absent,Low,2,13.8607
35,32,framing,Neutral,Loss,Absent,Low,1,3.117
35,7,emotion,Positive,Neutral,Absent,Low,2,7.0235
35,27,peer,Neutral,Gain,Present,High,2,6.303
35,9,emotion,Neutral,Neutral,Absent,Low,1,8.0111
35,2,emotion,Negative,Neutral,Absent,High,2,13.1879
35,16,peer,Neutral,Gain,Absent,High,1,3.0793
35,21,peer,Neutral,Loss,Present,High,1,9.9269
35,36,framing,Neutral,Loss,Absent,Low,2,2.7166
35,15,peer,Neutral,Gain,Present,High,1,3.7148
35,6,emotion,Neutral,Neutral,Absent,High,1,0.5555
35,24,peer,Neutral,Gain,Absent,Low,1,1.2859
35,26,peer,Neutral,Loss,Absent,High,1,19.6841
35,39,framing,Neutral,Gain,Absent,Low,2,2.5277
35,4,emotion,Positive,Neutral,Absent,High,1,2.0717
35,17,peer,Neutral,Loss,Present,Low,1,0.9181
35,10,emotion,Positive,Neutral,Absent,High,1,9.3956
35,18,peer,Neutral,Loss,Absent,Low,1,1.1514
35,25,peer,Neutral,Loss,Present,High,1,2.2019
35,23,peer,Neutral,Gain,Present,Low,1,0.9349
35,30,peer,Neutral,Loss,Absent,Low,1,1.39
35,1,emotion,Positive,Neutral,Absent,Low,1,2.2435
35,5,emotion,Negative,Neutral,Absent,Low,1,4.5034
35,12,peer,Neutral,Gain,Absent,Low,1,0.7662
35,11,peer,Neutral,Gain,Present,Low,1,0.7332
35,28,peer,Neutral,Gain,Absent,High,1,0.0863
35,33,framing,Neutral,Gain,Absent,High,2,1.1701
35,22,peer,Neutral,Loss,Absent,High,2,0.9867
35,37,framing,Neutral,Gain,Absent,High,1,0.6018
35,35,framing,Neutral,Gain,Absent,Low,1,1.6509
35,3,emotion,Neutral,Neutral,Absent,Low,1,0.7603
35,29,peer,Neutral,Loss,Present,Low,1,1.2218
35,20,peer,Neutral,Gain,Absent,Low,1,0.5875
35,14,peer,Neutral,Loss,Absent,High,1,3.5107
35,38,framing,Neutral,Loss,Absent,High,1,0.7678
35,19,peer,Neutral,Gain,Present,Low,1,1.953
35,34,framing,Neutral,Loss,Absent,High,1,0.487
35,8,emotion,Negative,Neutral,Absent,High,1,1.0949
39,19,peer,Neutral,Gain,Present,Low,2,11.3537
39,16,peer,Neutral,Gain,Absent,High,2,22.4185
39,5,emotion,Negative,Neutral,Absent,Low,1,10.2173
39,27,peer,Neutral,Gain,Present,High,2,4.2644
39,11,peer,Neutral,Gain,Present,Low,2,3.6002
39,37,framing,Neutral,Gain,Absent,High,2,2.175
39,18,peer,Neutral,Loss,Absent,Low,2,5.7751
39,29,peer,Neutral,Loss,Present,Low,2,3.6172
39,8,emotion,Negative,Neutral,Absent,High,2,3.308
39,9,emotion,Neutral,Neutral,Absent,Low,1,3.0251
39,33,framing,Neutral,Gain,Absent,High,2,3.1578
39,32,framing,Neutral,Loss,Absent,Low,2,8.2994
39,34,framing,Neutral,Loss,Absent,High,2,1.6771
39,39,framing,Neutral,Gain,Absent,Low,2,1.2275
39,24,peer,Neutral,Gain,Absent,Low,2,2.6088
39,7,emotion,Positive,Neutral,Absent,Low,2,7.3492
39,12,peer,Neutral,Gain,Absent,Low,2,6.1822
39,17,peer,Neutral,Loss,Present,Low,2,4.175
39,21,peer,Neutral,Loss,Present,High,2,1.3417
39,28,peer,Neutral,Gain,Absent,High,2,1.9079
39,22,peer,Neutral,Loss,Absent,High,2,0.7511
39,26,peer,Neutral,Loss,Absent,High,2,0.9086
39,3,emotion,Neutral,Neutral,Absent,Low,2,1.534
39,40,framing,Neutral,Loss,Absent,Low,2,2.9923
39,15,peer,Neutral,Gain,Present,High,2,1.9376
39,23,peer,Neutral,Gain,Present,Low,2,0.6812
39,1,emotion,Positive,Neutral,Absent,Low,2,1.8427
39,30,peer,Neutral,Loss,Absent,Low,2,0.5431
39,14,peer,Neutral,Loss,Absent,High,2,2.1215
39,31,framing,Neutral,Gain,Absent,Low,1,2.5676
39,20,peer,Neutral,Gain,Absent,Low,1,1.5841
39,36,framing,Neutral,Loss,Absent,Low,2,5.2161
39,13,peer,Neutral,Loss,Present,High,2,2.36
39,25,peer,Neutral,Loss,Present,High,2,5.5748
39,35,framing,Neutral,Gain,Absent,Low,2,1.3007
39,38,framing,Neutral,Loss,Absent,High,2,1.0338
39,2,emotion,Negative,Neutral,Absent,High,1,5.799
39,10,emotion,Positive,Neutral,Absent,High,2,1.6273
39,4,emotion,Positive,Neutral,Absent,High,1,2.2257
39,6,emotion,Neutral,Neutral,Absent,High,2,2.5918
40,28,peer,Neutral,Gain,Absent,High,1,7.5051
40,26,peer,Neutral,Loss,Absent,High,1,13.7901
40,3,emotion,Neutral,Neutral,Absent,Low,1,9.6062
40,31,framing,Neutral,Gain,Absent,Low,1,4.6181
40,29,peer,Neutral,Loss,Present,Low,1,14.969
40,6,emotion,Neutral,Neutral,Absent,High,2,3.4625
40,1,emotion,Positive,Neutral,Absent,Low,1,5.8382
40,23,peer,Neutral,Gain,Present,Low,1,3.0461
40,22,peer,Neutral,Loss,Absent,High,2,3.7557
40,19,peer,Neutral,Gain,Present,Low,1,7.1355
40,13,peer,Neutral,Loss,Present,High,1,2.6721
40,30,peer,Neutral,Loss,Absent,Low,1,5.7343
40,34,framing,Neutral,Loss,Absent,High,1,30.0067
40,37,framing,Neutral,Gain,Absent,High,2,1.9097
40,2,emotion,Negative,Neutral,Absent,High,2,6.1677
40,36,framing,Neutral,Loss,Absent,Low,1,1.3525
40,9,emotion,Neutral,Neutral,Absent,Low,1,0.9669
40,17,peer,Neutral,Loss,Present,Low,1,2.2774
40,18,peer,Neutral,Loss,Absent,Low,1,0.8052
40,24,peer,Neutral,Gain,Absent,Low,1,0.4835
40,5,emotion,Negative,Neutral,Absent,Low,1,2.6492
40,39,framing,Neutral,Gain,Absent,Low,1,0.4195
40,40,framing,Neutral,Loss,Absent,Low,1,0.9851
40,7,emotion,Positive,Neutral,Absent,Low,1,4.0535
40,38,framing,Neutral,Loss,Absent,High,2,2.291
40,32,framing,Neutral,Loss,Absent,Low,1,1.8169
40,21,peer,Neutral,Loss,Present,High,1,1.8857
40,4,emotion,Positive,Neutral,Absent,High,2,3.1841
40,8,emotion,Negative,Neutral,Absent,High,1,2.3227
40,33,framing,Neutral,Gain,Absent,High,1,2.0168
40,16,peer,Neutral,Gain,Absent,High,1,1.959
40,27,peer,Neutral,Gain,Present,High,1,4.0846
40,11,peer,Neutral,Gain,Present,Low,1,0.2738
40,35,framing,Neutral,Gain,Absent,Low,1,2.1892
40,15,peer,Neutral,Gain,Present,High,1,3.7599
40,14,peer,Neutral,Loss,Absent,High,1,1.3305
40,20,peer,Neutral,Gain,Absent,Low,1,0.6694
40,12,peer,Neutral,Gain,Absent,Low,1,0.5111
40,10,emotion,Positive,Neutral,Absent,High,1,0.8781
40,25,peer,Neutral,Loss,Present,High,1,0.4165
41,35,framing,Neutral,Gain,Absent,Low,1,19.8057
41,27,peer,Neutral,Gain,Present,High,2,7.7616
41,39,framing,Neutral,Gain,Absent,Low,1,6.6804
41,36,framing,Neutral,Loss,Absent,Low,1,3.0549
41,11,peer,Neutral,Gain,Present,Low,1,5.1407
41,29,peer,Neutral,Loss,Present,Low,1,4.9302
41,26,peer,Neutral,Loss,Absent,High,2,4.217
41,33,framing,Neutral,Gain,Absent,High,2,6.5518
41,30,peer,Neutral,Loss,Absent,Low,1,4.0671
41,5,emotion,Negative,Neutral,Absent,Low,1,4.0213
41,24,peer,Neutral,Gain,Absent,Low,1,2.8886
41,20,peer,Neutral,Gain,Absent,Low,1,4.9842
41,25,peer,Neutral,Loss,Present,High,2,3.7763
41,18,peer,Neutral,Loss,Absent,Low,1,5.5556
41,34,framing,Neutral,Loss,Absent,High,2,9.1285
41,4,emotion,Positive,Neutral,Absent,High,2,6.1692
41,38,framing,Neutral,Loss,Absent,High,2,3.5213
41,8,emotion,Negative,Neutral,Absent,High,2,3.2169
41,3,emotion,Neutral,Neutral,Absent,Low,1,4.088
41,13,peer,Neutral,Loss,Present,High,2,5.702
41,21,peer,Neutral,Loss,Present,High,2,2.7859
41,40,framing,Neutral,Loss,Absent,Low,1,2.1192
41,14,peer,Neutral,Loss,Absent,High,2,1.9401
41,6,emotion,Neutral,Neutral,Absent,High,2,4.0516
41,17,peer,Neutral,Loss,Present,Low,1,2.0717
41,10,emotion,Positive,Neutral,Absent,High,2,4.0344
41,22,peer,Neutral,Loss,Absent,High,2,2.0677
41,37,framing,Neutral,Gain,Absent,High,2,2.0469
41,15,peer,Neutral,Gain,Present,High,2,1.98
41,9,emotion,Neutral,Neutral,Absent,Low,1,1.423
41,7,emotion,Positive,Neutral,Absent,Low,1,1.7165
41,31,framing,Neutral,Gain,Absent,Low,1,3.8688
41,23,peer,Neutral,Gain,Present,Low,1,2.0511
41,32,framing,Neutral,Loss,Absent,Low,1,1.4514
41,1,emotion,Positive,Neutral,Absent,Low,1,2.2841
41,12,peer,Neutral,Gain,Absent,Low,1,3.1578
41,19,peer,Neutral,Gain,Present,Low,1,0.4796
41,28,peer,Neutral,Gain,Absent,High,1,8.0697
41,2,emotion,Negative,Neutral,Absent,High,2,3.5518
41,16,peer,Neutral,Gain,Absent,High,2,1.3691
43,17,peer,Neutral,Loss,Present,Low,2,2.9448
43,35,framing,Neutral,Gain,Absent,Low,1,19.9313
43,30,peer,Neutral,Loss,Absent,Low,1,10.4824
43,25,peer,Neutral,Loss,Present,High,2,32.4168
43,9,emotion,Neutral,Neutral,Absent,Low,1,25.0851
43,36,framing,Neutral,Loss,Absent,Low,1,5.2584
43,29,peer,Neutral,Loss,Present,Low,1,9.142
43,11,peer,Neutral,Gain,Present,Low,1,2.2588
43,37,framing,Neutral,Gain,Absent,High,1,16.7278
43,10,emotion,Positive,Neutral,Absent,High,1,16.8815
43,19,peer,Neutral,Gain,Present,Low,1,2.4466
43,31,framing,Neutral,Gain,Absent,Low,1,1.3619
43,20,peer,Neutral,Gain,Absent,Low,1,0.576
43,28,peer,Neutral,Gain,Absent,High,1,1.5422
43,3,emotion,Neutral,Neutral,Absent,Low,1,0.3015
43,38,framing,Neutral,Loss,Absent,High,1,2.7993
43,15,peer,Neutral,Gain,Present,High,1,4.6173
43,40,framing,Neutral,Loss,Absent,Low,1,3.5655
43,24,peer,Neutral,Gain,Absent,Low,1,1.4432
43,8,emotion,Negative,Neutral,Absent,High,1,4.2401
43,21,peer,Neutral,Loss,Present,High,1,1.2027
43,39,framing,Neutral,Gain,Absent,Low,1,0.2913
43,32,framing,Neutral,Loss,Absent,Low,1,0.3012
43,34,framing,Neutral,Loss,Absent,High,1,4.0497
43,4,emotion,Positive,Neutral,Absent,High,1,1.0021
43,16,peer,Neutral,Gain,Absent,High,1,9.2416
43,13,peer,Neutral,Loss,Present,High,1,0.2671
43,7,emotion,Positive,Neutral,Absent,Low,1,1.1642
43,6,emotion,Neutral,Neutral,Absent,High,1,0.4167
43,26,peer,Neutral,Loss,Absent,High,1,0.5519
43,2,emotion,Negative,Neutral,Absent,High,1,0.4674
43,1,emotion,Positive,Neutral,Absent,Low,1,0.7179
43,18,peer,Neutral,Loss,Absent,Low,1,0.2996
43,33,framing,Neutral,Gain,Absent,High,1,0.5727
43,5,emotion,Negative,Neutral,Absent,Low,1,0.4504
43,23,peer,Neutral,Gain,Present,Low,1,0.3494
43,12,peer,Neutral,Gain,Absent,Low,1,0.5339
43,27,peer,Neutral,Gain,Present,High,1,0.3293
43,22,peer,Neutral,Loss,Absent,High,1,0.4222
43,14,peer,Neutral,Loss,Absent,High,1,0.3601
44,21,peer,Neutral,Loss,Present,High,2,23.0057
44,1,emotion,Positive,Neutral,Absent,Low,2,12.9231
44,4,emotion,Positive,Neutral,Absent,High,2,10.9078
44,37,framing,Neutral,Gain,Absent,High,1,5.2103
44,34,framing,Neutral,Loss,Absent,High,1,2.3673
44,24,peer,Neutral,Gain,Absent,Low,1,4.9911
44,30,peer,Neutral,Loss,Absent,Low,1,1.4275
44,2,emotion,Negative,Neutral,Absent,High,1,1.4829
44,17,peer,Neutral,Loss,Present,Low,1,9.8429
44,5,emotion,Negative,Neutral,Absent,Low,1,2.5053
44,7,emotion,Positive,Neutral,Absent,Low,1,4.1672
44,26,peer,Neutral,Loss,Absent,High,1,0.6572
44,10,emotion,Positive,Neutral,Absent,High,1,8.4707
44,6,emotion,Neutral,Neutral,Absent,High,1,2.6105
44,39,framing,Neutral,Gain,Absent,Low,1,3.1242
44,25,peer,Neutral,Loss,Present,High,2,9.8884
44,16,peer,Neutral,Gain,Absent,High,2,7.8046
44,8,emotion,Negative,Neutral,Absent,High,1,6.6991
44,14,peer,Neutral,Loss,Absent,High,1,2.3349
44,29,peer,Neutral,Loss,Present,Low,2,2.788
44,3,emotion,Neutral,Neutral,Absent,Low,1,5.3939
44,23,peer,Neutral,Gain,Present,Low,1,0.2678
44,15,peer,Neutral,Gain,Present,High,1,0.3657
44,38,framing,Neutral,Loss,Absent,High,1,0.4544
44,13,peer,Neutral,Loss,Present,High,1,0.359
44,19,peer,Neutral,Gain,Present,Low,1,0.4828
44,22,peer,Neutral,Loss,Absent,High,2,1.0828
44,12,peer,Neutral,Gain,Absent,Low,1,0.8931
44,11,peer,Neutral,Gain,Present,Low,1,0.2786
44,31,framing,Neutral,Gain,Absent,Low,2,0.4555
44,33,framing,Neutral,Gain,Absent,High,1,0.0109
44,27,peer,Neutral,Gain,Present,High,1,0.2029
44,32,framing,Neutral,Loss,Absent,Low,1,0.2332
44,9,emotion,Neutral,Neutral,Absent,Low,1,0.3
44,18,peer,Neutral,Loss,Absent,Low,1,0.3282
44,20,peer,Neutral,Gain,Absent,Low,1,0.2271
44,35,framing,Neutral,Gain,Absent,Low,1,0.0005
44,40,framing,Neutral,Loss,Absent,Low,1,0.1503
44,36,framing,Neutral,Loss,Absent,Low,1,0.5833
44,28,peer,Neutral,Gain,Absent,High,1,0.3925
46,14,peer,Neutral,Loss,Absent,High,1,24.2096
46,15,peer,Neutral,Gain,Present,High,2,25.9729
46,11,peer,Neutral,Gain,Present,Low,2,51.2628
46,29,peer,Neutral,Loss,Present,Low,2,19.7501
46,40,framing,Neutral,Loss,Absent,Low,2,6.2785
46,16,peer,Neutral,Gain,Absent,High,2,19.7228
46,34,framing,Neutral,Loss,Absent,High,2,2.5176
46,30,peer,Neutral,Loss,Absent,Low,2,4.3674
46,17,peer,Neutral,Loss,Present,Low,2,2.304
46,19,peer,Neutral,Gain,Present,Low,2,2.9998
46,22,peer,Neutral,Loss,Absent,High,2,5.3485
46,27,peer,Neutral,Gain,Present,High,2,2.6641
46,4,emotion,Positive,Neutral,Absent,High,2,8.6691
46,12,peer,Neutral,Gain,Absent,Low,2,6.298
46,35,framing,Neutral,Gain,Absent,Low,2,4.4315
46,36,framing,Neutral,Loss,Absent,Low,2,5.4457
46,32,framing,Neutral,Loss,Absent,Low,2,2.2556
46,3,emotion,Neutral,Neutral,Absent,Low,2,2.5974
46,21,peer,Neutral,Loss,Present,High,2,1.9587
46,26,peer,Neutral,Loss,Absent,High,2,0.9165
46,23,peer,Neutral,Gain,Present,Low,2,1.5357
46,38,framing,Neutral,Loss,Absent,High,2,9.0948
46,2,emotion,Negative,Neutral,Absent,High,2,1.5187
46,6,emotion,Neutral,Neutral,Absent,High,2,0.7679
46,5,emotion,Negative,Neutral,Absent,Low,2,1.8172
46,24,peer,Neutral,Gain,Absent,Low,2,1.8305
46,39,framing,Neutral,Gain,Absent,Low,2,1.883
46,8,emotion,Negative,Neutral,Absent,High,2,2.3452
46,31,framing,Neutral,Gain,Absent,Low,2,0.8379
46,13,peer,Neutral,Loss,Present,High,2,0.3841
46,10,emotion,Positive,Neutral,Absent,High,2,1.7565
46,1,emotion,Positive,Neutral,Absent,Low,2,0.9357
46,37,framing,Neutral,Gain,Absent,High,2,0.6185
46,18,peer,Neutral,Loss,Absent,Low,2,0.3875
46,7,emotion,Positive,Neutral,Absent,Low,2,0.3684
46,33,framing,Neutral,Gain,Absent,High,2,0.1031
46,20,peer,Neutral,Gain,Absent,Low,2,0.3597
46,9,emotion,Neutral,Neutral,Absent,Low,2,2.5671
46,25,peer,Neutral,Loss,Present,High,2,0.5393
46,28,peer,Neutral,Gain,Absent,High,2,1.1995
48,40,framing,Neutral,Loss,Absent,Low,1,55.8833
48,10,emotion,Positive,Neutral,Absent,High,2,61.6939
48,35,framing,Neutral,Gain,Absent,Low,1,7.8217
48,14,peer,Neutral,Loss,Absent,High,2,9.6453
48,34,framing,Neutral,Loss,Absent,High,2,21.4202
48,1,emotion,Positive,Neutral,Absent,Low,1,12.9647
48,33,framing,Neutral,Gain,Absent,High,2,9.4509
48,28,peer,Neutral,Gain,Absent,High,2,8.1978
48,13,peer,Neutral,Loss,Present,High,2,3.4157
48,9,emotion,Neutral,Neutral,Absent,Low,2,7.0826
48,16,peer,Neutral,Gain,Absent,High,2,10.3256
48,22,peer,Neutral,Loss,Absent,High,1,13.0472
48,30,peer,Neutral,Loss,Absent,Low,1,9.9553
48,36,framing,Neutral,Loss,Absent,Low,2,12.9884
48,32,framing,Neutral,Loss,Absent,Low,1,4.4934
48,21,peer,Neutral,Loss,Present,High,2,10.2582
48,11,peer,Neutral,Gain,Present,Low,2,4.9945
48,19,peer,Neutral,Gain,Present,Low,1,8.6175
48,5,emotion,Negative,Neutral,Absent,Low,2,12.3787
48,25,peer,Neutral,Loss,Present,High,1,7.9701
48,23,peer,Neutral,Gain,Present,Low,1,3.5815
48,12,peer,Neutral,Gain,Absent,Low,2,2.8334
48,29,peer,Neutral,Loss,Present,Low,1,14.0906
48,37,framing,Neutral,Gain,Absent,High,2,3.2973
48,8,emotion,Negative,Neutral,Absent,High,2,2.8443
48,3,emotion,Neutral,Neutral,Absent,Low,1,3.8237
48,6,emotion,Neutral,Neutral,Absent,High,2,4.0084
48,15,peer,Neutral,Gain,Present,High,1,6.5155
48,27,peer,Neutral,Gain,Present,High,2,10.1965
48,24,peer,Neutral,Gain,Absent,Low,2,10.9832
48,26,peer,Neutral,Loss,Absent,High,1,2.9222
48,39,framing,Neutral,Gain,Absent,Low,1,1.2217
48,20,peer,Neutral,Gain,Absent,Low,1,1.9896
48,31,framing,Neutral,Gain,Absent,Low,1,1.8922
48,4,emotion,Positive,Neutral,Absent,High,2,1.6359
48,2,emotion,Negative,Neutral,Absent,High,2,1.2693
48,7,emotion,Positive,Neutral,Absent,Low,2,3.9886
48,18,peer,Neutral,Loss,Absent,Low,2,2.9696
48,38,framing,Neutral,Loss,Absent,High,1,4.3335
48,17,peer,Neutral,Loss,Present,Low,2,10.309
50,16,peer,Neutral,Gain,Absent,High,1,0.1555
50,36,framing,Neutral,Loss,Absent,Low,1,19.8317
50,18,peer,Neutral,Loss,Absent,Low,1,7.594
50,4,emotion,Positive,Neutral,Absent,High,2,5.12
50,3,emotion,Neutral,Neutral,Absent,Low,2,3.2788
50,7,emotion,Positive,Neutral,Absent,Low,2,4.2863
50,34,framing,Neutral,Loss,Absent,High,2,12.5717
50,19,peer,Neutral,Gain,Present,Low,1,14.0686
50,17,peer,Neutral,Loss,Present,Low,1,7.2565
50,31,framing,Neutral,Gain,Absent,Low,1,4.8533
50,27,peer,Neutral,Gain,Present,High,2,7.5256
50,9,emotion,Neutral,Neutral,Absent,Low,1,3.5253
50,8,emotion,Negative,Neutral,Absent,High,2,7.7168
50,32,framing,Neutral,Loss,Absent,Low,1,8.0429
50,38,framing,Neutral,Loss,Absent,High,2,3.332
50,26,peer,Neutral,Loss,Absent,High,2,2.2463
50,23,peer,Neutral,Gain,Present,Low,1,3.6056
50,1,emotion,Positive,Neutral,Absent,Low,1,2.618
50,29,peer,Neutral,Loss,Present,Low,2,6.3648
50,10,emotion,Positive,Neutral,Absent,High,2,5.2063
50,2,emotion,Negative,Neutral,Absent,High,2,2.2069
50,5,emotion,Negative,Neutral,Absent,Low,2,2.1121
50,20,peer,Neutral,Gain,Absent,Low,2,3.1842
50,22,peer,Neutral,Loss,Absent,High,2,2.7297
50,37,framing,Neutral,Gain,Absent,High,2,0.9853
50,15,peer,Neutral,Gain,Present,High,2,3.4718
50,24,peer,Neutral,Gain,Absent,Low,2,4.8852
50,39,framing,Neutral,Gain,Absent,Low,2,0.3944
50,11,peer,Neutral,Gain,Present,Low,2,0.6342
50,40,framing,Neutral,Loss,Absent,Low,2,1.2843
50,25,peer,Neutral,Loss,Present,High,2,0.4051
50,12,peer,Neutral,Gain,Absent,Low,2,0.6735
50,14,peer,Neutral,Loss,Absent,High,2,1.5509
50,6,emotion,Neutral,Neutral,Absent,High,2,0.4851
50,30,peer,Neutral,Loss,Absent,Low,2,3.7108
50,28,peer,Neutral,Gain,Absent,High,2,1.0266
50,33,framing,Neutral,Gain,Absent,High,2,4.3105
50,13,peer,Neutral,Loss,Present,High,2,0.6463
50,21,peer,Neutral,Loss,Present,High,2,1.1182
50,35,framing,Neutral,Gain,Absent,Low,2,0.7395
51,3,emotion,Neutral,Neutral,Absent,Low,1,0.5881
51,39,framing,Neutral,Gain,Absent,Low,2,2.4979
51,11,peer,Neutral,Gain,Present,Low,2,3.1963
51,26,peer,Neutral,Loss,Absent,High,1,0.9403
51,25,peer,Neutral,Loss,Present,High,1,2.363
51,10,emotion,Positive,Neutral,Absent,High,1,4.1991
51,19,peer,Neutral,Gain,Present,Low,2,2.0241
51,6,emotion,Neutral,Neutral,Absent,High,1,3.406
51,2,emotion,Negative,Neutral,Absent,High,2,2.2219
51,40,framing,Neutral,Loss,Absent,Low,2,1.1516
51,7,emotion,Positive,Neutral,Absent,Low,2,1.4873
51,20,peer,Neutral,Gain,Absent,Low,1,0.8492
51,34,framing,Neutral,Loss,Absent,High,1,0.0013
51,28,peer,Neutral,Gain,Absent,High,2,4.0834
51,32,framing,Neutral,Loss,Absent,Low,2,1.2078
51,36,framing,Neutral,Loss,Absent,Low,1,0.1008
51,23,peer,Neutral,Gain,Present,Low,1,0.5565
51,18,peer,Neutral,Loss,Absent,Low,1,0.7527
51,31,framing,Neutral,Gain,Absent,Low,1,0.4841
51,1,emotion,Positive,Neutral,Absent,Low,2,0.9819
51,30,peer,Neutral,Loss,Absent,Low,2,4.7617
51,33,framing,Neutral,Gain,Absent,High,1,2.766
51,22,peer,Neutral,Loss,Absent,High,2,3.347
51,16,peer,Neutral,Gain,Absent,High,1,0.1191
51,21,peer,Neutral,Loss,Present,High,1,1.7442
51,5,emotion,Negative,Neutral,Absent,Low,2,4.1693
51,27,peer,Neutral,Gain,Present,High,2,1.5475
51,38,framing,Neutral,Loss,Absent,High,1,0.2827
51,15,peer,Neutral,Gain,Present,High,2,1.9163
51,13,peer,Neutral,Loss,Present,High,1,1.1917
51,24,peer,Neutral,Gain,Absent,Low,2,4.6872
51,14,peer,Neutral,Loss,Absent,High,1,3.505
51,12,peer,Neutral,Gain,Absent,Low,2,1.1604
51,4,emotion,Positive,Neutral,Absent,High,1,1.7887
51,8,emotion,Negative,Neutral,Absent,High,1,1.0844
51,37,framing,Neutral,Gain,Absent,High,1,0.0922
51,17,peer,Neutral,Loss,Present,Low,1,4.3929
51,29,peer,Neutral,Loss,Present,Low,1,1.2157
51,35,framing,Neutral,Gain,Absent,Low,1,1.6496
51,9,emotion,Neutral,Neutral,Absent,Low,2,1.3187
52,2,emotion,Negative,Neutral,Absent,High,1,0.9841
52,1,emotion,Positive,Neutral,Absent,Low,1,2.6403
52,18,peer,Neutral,Loss,Absent,Low,1,0.9807
52,24,peer,Neutral,Gain,Absent,Low,1,0.0088
52,3,emotion,Neutral,Neutral,Absent,Low,2,1.2629
52,8,emotion,Negative,Neutral,Absent,High,2,0.8527
52,35,framing,Neutral,Gain,Absent,Low,1,7.592
52,32,framing,Neutral,Loss,Absent,Low,2,2.803
52,10,emotion,Positive,Neutral,Absent,High,2,2.22
52,22,peer,Neutral,Loss,Absent,High,2,2.5621
52,30,peer,Neutral,Loss,Absent,Low,1,3.0419
52,4,emotion,Positive,Neutral,Absent,High,2,4.181
52,12,peer,Neutral,Gain,Absent,Low,2,4.6807
52,23,peer,Neutral,Gain,Present,Low,2,3.7024
52,28,peer,Neutral,Gain,Absent,High,2,1.8215
52,13,peer,Neutral,Loss,Present,High,2,2.0309
52,26,peer,Neutral,Loss,Absent,High,2,4.563
52,17,peer,Neutral,Loss,Present,Low,1,2.7442
52,19,peer,Neutral,Gain,Present,Low,2,5.9281
52,40,framing,Neutral,Loss,Absent,Low,2,0.9449
52,31,framing,Neutral,Gain,Absent,Low,2,5.809
52,37,framing,Neutral,Gain,Absent,High,1,0.7104
52,38,framing,Neutral,Loss,Absent,High,1,0.5132
52,14,peer,Neutral,Loss,Absent,High,2,0.8771
52,11,peer,Neutral,Gain,Present,Low,1,0.6133
52,21,peer,Neutral,Loss,Present,High,1,1.3987
52,25,peer,Neutral,Loss,Present,High,1,0.9857
52,15,peer,Neutral,Gain,Present,High,2,1.2815
52,16,peer,Neutral,Gain,Absent,High,1,1.1631
52,33,framing,Neutral,Gain,Absent,High,1,0.8022
52,9,emotion,Neutral,Neutral,Absent,Low,1,0.7285
52,5,emotion,Negative,Neutral,Absent,Low,2,1.5138
52,7,emotion,Positive,Neutral,Absent,Low,2,1.068
52,20,peer,Neutral,Gain,Absent,Low,1,0.2
52,29,peer,Neutral,Loss,Present,Low,1,1.9902
52,39,framing,Neutral,Gain,Absent,Low,1,0.3192
52,34,framing,Neutral,Loss,Absent,High,1,0.0305
52,6,emotion,Neutral,Neutral,Absent,High,2,3.6102
52,27,peer,Neutral,Gain,Present,High,2,1.3479
52,36,framing,Neutral,Loss,Absent,Low,1,0.8277
53,17,peer,Neutral,Loss,Present,Low,1,12.4491
53,25,peer,Neutral,Loss,Present,High,1,6.9774
53,13,peer,Neutral,Loss,Present,High,2,4.0362
53,27,peer,Neutral,Gain,Present,High,2,7.0843
53,9,emotion,Neutral,Neutral,Absent,Low,1,5.3973
53,30,peer,Neutral,Loss,Absent,Low,2,3.5875
53,14,peer,Neutral,Loss,Absent,High,1,1.3076
53,40,framing,Neutral,Loss,Absent,Low,1,0.6084
53,28,peer,Neutral,Gain,Absent,High,2,2.212
53,24,peer,Neutral,Gain,Absent,Low,1,0.7057
53,21,peer,Neutral,Loss,Present,High,2,0.7447
53,33,framing,Neutral,Gain,Absent,High,1,0.7332
53,1,emotion,Positive,Neutral,Absent,Low,1,6.722
53,18,peer,Neutral,Loss,Absent,Low,1,0.5527
53,32,framing,Neutral,Loss,Absent,Low,1,0.6322
53,22,peer,Neutral,Loss,Absent,High,2,0.3996
53,5,emotion,Negative,Neutral,Absent,Low,1,0.8506
53,35,framing,Neutral,Gain,Absent,Low,1,0.6293
53,38,framing,Neutral,Loss,Absent,High,1,0.6236
53,3,emotion,Neutral,Neutral,Absent,Low,1,0.792
53,20,peer,Neutral,Gain,Absent,Low,1,0.5154
53,19,peer,Neutral,Gain,Present,Low,1,0.4669
53,2,emotion,Negative,Neutral,Absent,High,1,0.5061
53,34,framing,Neutral,Loss,Absent,High,1,0.4918
53,15,peer,Neutral,Gain,Present,High,1,0.6902
53,29,peer,Neutral,Loss,Present,Low,1,0.3888
53,16,peer,Neutral,Gain,Absent,High,2,0.3735
53,10,emotion,Positive,Neutral,Absent,High,1,1.5498
53,37,framing,Neutral,Gain,Absent,High,1,0.5315
53,4,emotion,Positive,Neutral,Absent,High,2,1.4179
53,7,emotion,Positive,Neutral,Absent,Low,1,0.4542
53,11,peer,Neutral,Gain,Present,Low,1,0.3858
53,36,framing,Neutral,Loss,Absent,Low,2,0.5228
53,31,framing,Neutral,Gain,Absent,Low,2,6.3761
53,12,peer,Neutral,Gain,Absent,Low,2,0.2171
53,8,emotion,Negative,Neutral,Absent,High,1,0.6004
53,6,emotion,Neutral,Neutral,Absent,High,1,0.4484
53,23,peer,Neutral,Gain,Present,Low,2,0.3649
53,39,framing,Neutral,Gain,Absent,Low,1,0.5027
53,26,peer,Neutral,Loss,Absent,High,2,0.6591
54,28,peer,Neutral,Gain,Absent,High,1,7.5051
54,26,peer,Neutral,Loss,Absent,High,1,13.7901
54,3,emotion,Neutral,Neutral,Absent,Low,1,9.6062
54,31,framing,Neutral,Gain,Absent,Low,1,4.6181
54,29,peer,Neutral,Loss,Present,Low,1,14.969
54,6,emotion,Neutral,Neutral,Absent,High,2,3.4625
54,1,emotion,Positive,Neutral,Absent,Low,1,5.8382
54,23,peer,Neutral,Gain,Present,Low,1,3.0461
54,22,peer,Neutral,Loss,Absent,High,2,3.7557
54,19,peer,Neutral,Gain,Present,Low,1,7.1355
54,13,peer,Neutral,Loss,Present,High,1,2.6721
54,30,peer,Neutral,Loss,Absent,Low,1,5.7343
54,34,framing,Neutral,Loss,Absent,High,1,30.0067
54,37,framing,Neutral,Gain,Absent,High,2,1.9097
54,2,emotion,Negative,Neutral,Absent,High,2,6.1677
54,36,framing,Neutral,Loss,Absent,Low,1,1.3525
54,9,emotion,Neutral,Neutral,Absent,Low,1,0.9669
54,17,peer,Neutral,Loss,Present,Low,1,2.2774
54,18,peer,Neutral,Loss,Absent,Low,1,0.8052
54,24,peer,Neutral,Gain,Absent,Low,1,0.4835
54,5,emotion,Negative,Neutral,Absent,Low,1,2.6492
54,39,framing,Neutral,Gain,Absent,Low,1,0.4195
54,40,framing,Neutral,Loss,Absent,Low,1,0.9851
54,7,emotion,Positive,Neutral,Absent,Low,1,4.0535
54,38,framing,Neutral,Loss,Absent,High,2,2.291
54,32,framing,Neutral,Loss,Absent,Low,1,1.8169
54,21,peer,Neutral,Loss,Present,High,1,1.8857
54,4,emotion,Positive,Neutral,Absent,High,2,3.1841
54,8,emotion,Negative,Neutral,Absent,High,1,2.3227
54,33,framing,Neutral,Gain,Absent,High,1,2.0168
54,16,peer,Neutral,Gain,Absent,High,1,1.959
54,27,peer,Neutral,Gain,Present,High,1,4.0846
54,11,peer,Neutral,Gain,Present,Low,1,0.2738
54,35,framing,Neutral,Gain,Absent,Low,1,2.1892
54,15,peer,Neutral,Gain,Present,High,1,3.7599
54,14,peer,Neutral,Loss,Absent,High,1,1.3305
54,20,peer,Neutral,Gain,Absent,Low,1,0.6694
54,12,peer,Neutral,Gain,Absent,Low,1,0.5111
54,10,emotion,Positive,Neutral,Absent,High,1,0.8781
54,25,peer,Neutral,Loss,Present,High,1,0.4165
61,17,peer,Neutral,Loss,Present,Low,1,12.4491
61,25,peer,Neutral,Loss,Present,High,1,6.9774
61,13,peer,Neutral,Loss,Present,High,2,4.0362
61,27,peer,Neutral,Gain,Present,High,2,7.0843
61,9,emotion,Neutral,Neutral,Absent,Low,1,5.3973
61,30,peer,Neutral,Loss,Absent,Low,2,3.5875
61,14,peer,Neutral,Loss,Absent,High,1,1.3076
61,40,framing,Neutral,Loss,Absent,Low,1,0.6084
61,28,peer,Neutral,Gain,Absent,High,2,2.212
61,24,peer,Neutral,Gain,Absent,Low,1,0.7057
61,21,peer,Neutral,Loss,Present,High,2,0.7447
61,33,framing,Neutral,Gain,Absent,High,1,0.7332
61,1,emotion,Positive,Neutral,Absent,Low,1,6.722
61,18,peer,Neutral,Loss,Absent,Low,1,0.5527
61,32,framing,Neutral,Loss,Absent,Low,1,0.6322
61,22,peer,Neutral,Loss,Absent,High,2,0.3996
61,5,emotion,Negative,Neutral,Absent,Low,1,0.8506
61,35,framing,Neutral,Gain,Absent,Low,1,0.6293
61,38,framing,Neutral,Loss,Absent,High,1,0.6236
61,3,emotion,Neutral,Neutral,Absent,Low,1,0.792
61,20,peer,Neutral,Gain,Absent,Low,1,0.5154
61,19,peer,Neutral,Gain,Present,Low,1,0.4669
61,2,emotion,Negative,Neutral,Absent,High,1,0.5061
61,34,framing,Neutral,Loss,Absent,High,1,0.4918
61,15,peer,Neutral,Gain,Present,High,1,0.6902
61,29,peer,Neutral,Loss,Present,Low,1,0.3888
61,16,peer,Neutral,Gain,Absent,High,2,0.3735
61,10,emotion,Positive,Neutral,Absent,High,1,1.5498
61,37,framing,Neutral,Gain,Absent,High,1,0.5315
61,4,emotion,Positive,Neutral,Absent,High,2,1.4179
61,7,emotion,Positive,Neutral,Absent,Low,1,0.4542
61,11,peer,Neutral,Gain,Present,Low,1,0.3858
61,36,framing,Neutral,Loss,Absent,Low,2,0.5228
61,31,framing,Neutral,Gain,Absent,Low,2,6.3761
61,12,peer,Neutral,Gain,Absent,Low,2,0.2171
61,8,emotion,Negative,Neutral,Absent,High,1,0.6004
61,6,emotion,Neutral,Neutral,Absent,High,1,0.4484
61,23,peer,Neutral,Gain,Present,Low,2,0.3649
61,39,framing,Neutral,Gain,Absent,Low,1,0.5027
61,26,peer,Neutral,Loss,Absent,High,2,0.6591
62,36,framing,Neutral,Loss,Absent,Low,1,9.562
62,5,emotion,Negative,Neutral,Absent,Low,1,24.0644
62,28,peer,Neutral,Gain,Absent,High,2,9.9887
62,24,peer,Neutral,Gain,Absent,Low,1,13.9196
62,14,peer,Neutral,Loss,Absent,High,2,6.3223
62,11,peer,Neutral,Gain,Present,Low,1,8.2552
62,26,peer,Neutral,Loss,Absent,High,2,9.0718
62,1,emotion,Positive,Neutral,Absent,Low,1,6.3327
62,13,peer,Neutral,Loss,Present,High,2,13.6148
62,15,peer,Neutral,Gain,Present,High,2,18.5988
62,17,peer,Neutral,Loss,Present,Low,1,11.5367
62,37,framing,Neutral,Gain,Absent,High,2,3.8321
62,35,framing,Neutral,Gain,Absent,Low,1,6.5522
62,4,emotion,Positive,Neutral,Absent,High,2,5.0803
62,29,peer,Neutral,Loss,Present,Low,1,3.5434
62,33,framing,Neutral,Gain,Absent,High,2,2.4165
62,22,peer,Neutral,Loss,Absent,High,2,2.9415
62,10,emotion,Positive,Neutral,Absent,High,2,4.5936
62,27,peer,Neutral,Gain,Present,High,2,3.8215
62,25,peer,Neutral,Loss,Present,High,2,3.4495
62,18,peer,Neutral,Loss,Absent,Low,1,3.1341
62,7,emotion,Positive,Neutral,Absent,Low,1,3.1851
62,8,emotion,Negative,Neutral,Absent,High,2,6.3326
62,38,framing,Neutral,Loss,Absent,High,2,2.8778
62,40,framing,Neutral,Loss,Absent,Low,1,6.4849
62,2,emotion,Negative,Neutral,Absent,High,2,5.2156
62,6,emotion,Neutral,Neutral,Absent,High,2,2.5501
62,39,framing,Neutral,Gain,Absent,Low,1,1.5855
62,20,peer,Neutral,Gain,Absent,Low,1,1.6198
62,23,peer,Neutral,Gain,Present,Low,1,5.1998
62,31,framing,Neutral,Gain,Absent,Low,1,1.3021
62,16,peer,Neutral,Gain,Absent,High,2,2.3184
62,21,peer,Neutral,Loss,Present,High,2,5.2325
62,9,emotion,Neutral,Neutral,Absent,Low,1,1.6833
62,30,peer,Neutral,Loss,Absent,Low,1,1.6848
62,19,peer,Neutral,Gain,Present,Low,1,4.5178
62,12,peer,Neutral,Gain,Absent,Low,1,2.2899
62,32,framing,Neutral,Loss,Absent,Low,1,2.2816
62,3,emotion,Neutral,Neutral,Absent,Low,1,4.3701
62,34,framing,Neutral,Loss,Absent,High,2,7.2338
